Folder: Battery-Cycle-Life-Analysis

Note: README.md
# Battery-Cycle-Life-Analysis
Analyze battery cycle life and capacity degradation systematically using Python. Visualize capacity vs. cycle, Coulombic efficiency, dQ/dV curves, and fit SOH decay models for fast insights into battery performance.电池循环寿命与容量衰减自动分析，可视化输出容量-循环次数、库仑效率、dQ/dV 曲线，并拟合 SOH 衰减模型，用于快速评估电池性能变化趋势。

File: cycle_data_demo.csv
Cycle,Capacity_Ah,Coulombic_Efficiency
1,2.50297,0.997586
2,2.49462,0.99772
3,2.50048,0.998374
4,2.50723,0.998305
5,2.48766,0.99799
6,2.48566,0.998059
7,2.50179,0.998639
8,2.49167,0.997704
9,2.47731,0.998274
10,2.48543,0.997899
11,2.47337,0.997891
12,2.47134,0.998549
13,2.47642,0.998413
14,2.45287,0.998407
15,2.45275,0.998653
16,2.46238,0.998011
17,2.45587,0.998341
18,2.46714,0.997845
19,2.45292,0.998162
20,2.44588,0.997935
21,2.47266,0.998048
22,2.45374,0.998298
23,2.45468,0.997591
24,2.43775,0.999046
25,2.44456,0.997497
26,2.44911,0.997393
27,2.43449,0.998579
28,2.44776,0.998396
29,2.43599,0.998312
30,2.43708,0.998314
31,2.43198,0.997994
32,2.45452,0.997551
33,2.43387,0.998038
34,2.42142,0.997661
35,2.43823,0.998488
36,2.41579,0.997926
37,2.42809,0.997587
38,2.4044,0.997839
39,2.40872,0.998206
40,2.42197,0.997718
41,2.42538,0.997589
42,2.41771,0.998122
43,2.41284,0.998122
44,2.40899,0.997747
45,2.39521,0.997764
46,2.4008,0.998116
47,2.40139,0.997276
48,2.41457,0.997296
49,2.40544,0.997641
50,2.38237,0.997893
51,2.40124,0.998155
52,2.39215,0.998738
53,2.38723,0.998429
54,2.39812,0.99792
55,2.40031,0.99799
56,2.39731,0.997499
57,2.37761,0.997991
58,2.38091,0.997856
59,2.38531,0.998161
60,2.38976,0.997586
61,2.37321,0.99826
62,2.37414,0.998766
63,2.36294,0.997946
64,2.36004,0.998201
65,2.37813,0.998345
66,2.38156,0.997799
67,2.36528,0.998112
68,2.37404,0.998006
69,2.36562,0.998049
70,2.35355,0.997613
71,2.36161,0.998012
72,2.37138,0.998249
73,2.35364,0.998726
74,2.36765,0.99848
75,2.3238,0.999077
76,2.35622,0.997616
77,2.34687,0.998436
78,2.34101,0.998092
79,2.34292,0.999095
80,2.32012,0.997596
81,2.3358,0.99758
82,2.33957,0.9977
83,2.34878,0.996938
84,2.32682,0.997737
85,2.32192,0.99762
86,2.32298,0.998075
87,2.33515,0.998171
88,2.32729,0.998938
89,2.3167,0.998475
90,2.32513,0.997712
91,2.31897,0.997551
92,2.32569,0.998246
93,2.30698,0.99734
94,2.30872,0.998916
95,2.30608,0.99859
96,2.29336,0.997765
97,2.30896,0.997143
98,2.30661,0.998677
99,2.30205,0.997943
100,2.29765,0.998619
101,2.28385,0.997203
102,2.29179,0.9977
103,2.29057,0.998003
104,2.28398,0.998023
105,2.28839,0.997775
106,2.29204,0.998311
107,2.30486,0.997466
108,2.28575,0.997929
109,2.28458,0.99806
110,2.27926,0.998257
111,2.25881,0.998356
112,2.27573,0.997438
113,2.2746,0.997233
114,2.29663,0.998639
115,2.26808,0.998166
116,2.27102,0.997626
117,2.26565,0.998776
118,2.25231,0.998058
119,2.27343,0.99859
120,2.26752,0.998034
121,2.26591,0.99903
122,2.24691,0.998878
123,2.26803,0.997876
124,2.23798,0.998486
125,2.25587,0.998323
126,2.2699,0.998684
127,2.23609,0.997518
128,2.23834,0.998343
129,2.243,0.998529
130,2.23497,0.997121
131,2.22249,0.997408
132,2.23669,0.99698
133,2.22338,0.997865
134,2.23674,0.998359
135,2.22081,0.998751
136,2.2435,0.998037
137,2.21817,0.998814
138,2.22078,0.99731
139,2.23014,0.997148
140,2.20769,0.997972
141,2.22027,0.998192
142,2.22907,0.997984
143,2.19793,0.996966
144,2.21385,0.997955
145,2.2126,0.997348
146,2.21582,0.998335
147,2.19363,0.998183
148,2.1908,0.99753
149,2.20722,0.997743
150,2.20297,0.99747
151,2.2005,0.997969
152,2.19946,0.998478
153,2.1872,0.997507
154,2.19432,0.998252
155,2.19293,0.997735
156,2.18086,0.997604
157,2.20466,0.997946
158,2.18874,0.997482
159,2.17009,0.997723
160,2.18657,0.997401
161,2.16825,0.998982
162,2.18387,0.998018
163,2.18559,0.99765
164,2.16379,0.998107
165,2.17963,0.997944
166,2.17213,0.99789
167,2.17422,0.998307
168,2.18297,0.998379
169,2.15955,0.997735
170,2.15246,0.997712
171,2.1491,0.997862
172,2.14784,0.996849
173,2.15323,0.997242
174,2.15541,0.998683
175,2.15277,0.998822
176,2.15627,0.997875
177,2.14613,0.998288
178,2.15854,0.998156
179,2.13935,0.999539
180,2.1672,0.99856
181,2.14426,0.997936
182,2.12743,0.997522
183,2.12329,0.997197
184,2.13682,0.998102
185,2.12777,0.997622
186,2.13514,0.997289
187,2.13073,0.997677
188,2.12327,0.997459
189,2.11353,0.998844
190,2.10485,0.998441
191,2.11353,0.997996
192,2.12456,0.99874
193,2.11614,0.998039
194,2.09954,0.997569
195,2.11173,0.998762
196,2.11185,0.998269
197,2.09716,0.997481
198,2.10554,0.997905
199,2.10258,0.997562
200,2.08857,0.997309
201,2.10158,0.998463
202,2.10161,0.998955
203,2.10483,0.997301
204,2.10254,0.998281
205,2.07622,0.997675
206,2.07862,0.997756
207,2.09115,0.997704
208,2.08914,0.997568
209,2.08715,0.998024
210,2.11853,0.997585
211,2.08371,0.998135
212,2.08736,0.997975
213,2.08354,0.997881
214,2.07851,0.997546
215,2.06685,0.997712
216,2.07559,0.998378
217,2.05827,0.99825
218,2.06163,0.997511
219,2.05715,0.99805
220,2.06082,0.998376
221,2.08115,0.997165
222,2.03733,0.998272
223,2.06086,0.997669
224,2.03587,0.998285
225,2.04528,0.997618
226,2.05889,0.997098
227,2.04664,0.997186
228,2.03322,0.998024
229,2.03485,0.99813
230,2.0468,0.997548
231,2.0307,0.998319
232,2.03816,0.997169
233,2.03446,0.997967
234,2.02548,0.997394
235,2.05144,0.997674
236,2.03434,0.998024
237,2.00575,0.99757
238,2.02586,0.997808
239,2.01538,0.998503
240,2.02852,0.997712
241,2.01007,0.998418
242,2.01485,0.997435
243,2.01905,0.998265
244,2.02066,0.998721
245,1.998,0.996764
246,2.00465,0.997602
247,2.00125,0.998289
248,1.99747,0.997898
249,2.01965,0.998186
250,2.00405,0.997698
251,1.98539,0.998043
252,2.00518,0.997922
253,2.01522,0.998584
254,2.00232,0.998127
255,1.97481,0.998169
256,1.98316,0.997794
257,1.99867,0.997756
258,1.97692,0.997784
259,1.98644,0.998197
260,1.98775,0.99779
261,1.96873,0.998145
262,1.9754,0.999038
263,1.94159,0.998436
264,1.96176,0.997837
265,1.96747,0.998601
266,1.95552,0.997796
267,1.98232,0.996981
268,1.9497,0.997496
269,1.9576,0.997065
270,1.96131,0.997824
271,1.97241,0.998009
272,1.94164,0.998838
273,1.96563,0.998163
274,1.9521,0.99789
275,1.94018,0.998415
276,1.95262,0.996894
277,1.94799,0.998118
278,1.938,0.998385
279,1.9427,0.997261
280,1.93615,0.998572
281,1.93914,0.998169
282,1.94262,0.997792
283,1.94986,0.998316
284,1.91962,0.999135
285,1.95133,0.998091
286,1.90848,0.998124
287,1.92448,0.99777
288,1.92988,0.997575
289,1.92481,0.998415
290,1.91377,0.997572
291,1.91592,0.998036
292,1.91107,0.997761
293,1.90811,0.998239
294,1.9205,0.998167
295,1.91357,0.998519
296,1.90107,0.997745
297,1.915,0.997865
298,1.90707,0.997511
299,1.91013,0.997778
300,1.9063,0.998189